Folder: synchrotron-paper-data/XRD

Note: README.md
# synchrotron-paper-data
Data to accompany Wilcots et al. 2021 (Nanoscale crystal fabric of primary Ediacaran dolomite)  

/EPMA/  
Electron probe microanalysis data. ~50 spot analyses on sample MD6 258.6  

/XRD/  
X-ray diffraction data. Peaks file + details about how the data were collected.

File: MD6_258_6_g2_full_spectrum.csv
,x,y
0,5.00836,109.843
16,5.27574,94.0945
32,5.54312,90.1575
48,5.8105,92.9134
64,6.07788,75.5906
80,6.34526,74.4094
96,6.61264,72.4409
112,6.88002,76.378
128,7.1474,76.5748
144,7.41478,71.6535
160,7.68216,66.3386
176,7.94954,67.5197
192,8.21692,66.1417
208,8.4843,64.7638
224,8.75168,74.8031
240,9.01906,67.5197
256,9.28644,58.6614
272,9.55382,63.7795
288,9.8212,60.2362
304,10.0886,57.6772
320,10.356,57.4803
336,10.6233,57.0866
352,10.8907,51.9685
368,11.1581,52.9528
384,11.4255,48.8189
400,11.6929,42.9134
416,11.9602,47.0472
432,12.2276,50.0
448,12.495,47.2441
464,12.7624,45.2756
480,13.0298,37.9921
496,13.2971,44.8819
512,13.5645,41.3386
528,13.8319,40.5512
544,14.0993,40.748
560,14.3667,37.9921
576,14.634,32.4803
592,14.9014,32.874
608,15.1688,32.4803
624,15.4362,33.4646
640,15.7036,34.8425
656,15.9709,28.5433
672,16.2383,27.9528
688,16.5057,30.7087
704,16.7731,29.9213
720,17.0405,21.6535
736,17.3078,24.4094
752,17.5752,22.0472
768,17.8426,18.1102
784,18.11,23.622
800,18.3774,19.8819
816,18.6448,21.4567
832,18.9121,17.9134
848,19.1795,18.8976
864,19.4469,19.8819
880,19.7143,14.5669
896,19.9817,18.7008
912,20.249,15.3543
928,20.5164,16.9291
944,20.7838,18.1102
960,21.0512,17.5197
976,21.3186,12.9921
992,21.5859,13.189
1008,21.8533,15.748
1024,22.1207,16.1417
1040,22.3881,13.7795
1056,22.6555,18.5039
1072,22.9228,12.9921
1088,23.1902,13.7795
1104,23.4576,12.9921
1120,23.725,12.5984
1136,23.9924,17.126
1152,24.2597,23.4252
1168,24.5271,17.9134
1184,24.7945,12.5984
1200,25.0619,12.9921
1216,25.3293,12.2047
1232,25.5966,15.1575
1248,25.864,11.0236
1264,26.1314,11.6142
1280,26.3988,11.4173
1296,26.6662,14.3701
1312,26.9335,16.1417
1328,27.2009,11.4173
1344,27.4683,12.7953
1360,27.7357,14.5669
1376,28.0031,9.25197
1392,28.2704,14.3701
1408,28.5378,14.9606
1424,28.8052,13.9764
1440,29.0726,16.1417
1456,29.34,12.0079
1472,29.6073,14.1732
1488,29.8747,15.5512
1504,30.1421,12.2047
1520,30.4095,12.4016
1536,30.6769,24.6063
1552,30.9442,62.0079
1568,31.2116,115.748
1584,31.479,24.4094
1600,31.7464,14.1732
1616,32.0138,15.5512
1632,32.2811,13.189
1648,32.5485,11.4173
1664,32.8159,10.8268
1680,33.0833,12.4016
1696,33.3507,12.2047
1712,33.618,14.3701
1728,33.8854,14.5669
1744,34.1528,12.2047
1760,34.4202,10.8268
1776,34.6876,13.189
1792,34.9549,13.189
1808,35.2223,9.84252
1824,35.4897,14.5669
1840,35.7571,12.9921
1856,36.0245,9.84252
1872,36.2919,7.48031
1888,36.5592,11.4173
1904,36.8266,11.0236
1920,37.094,11.2205
1936,37.3614,15.1575
1952,37.6288,22.8346
1968,37.8961,9.25197
1984,38.1635,10.6299
2000,38.4309,9.64567
2016,38.6983,10.6299
2032,38.9657,8.46457
2048,39.233,8.46457
2064,39.5004,11.0236
2080,39.7678,9.84252
2096,40.0352,9.05512
2112,40.3026,12.7953
2128,40.5699,9.84252
2144,40.8373,12.5984
2160,41.1047,22.4409
2176,41.3721,46.6535
2192,41.6395,18.7008
2208,41.9068,12.4016
2224,42.1742,10.2362
2240,42.4416,10.6299
2256,42.709,6.88976
2272,42.9764,6.88976
2288,43.2437,11.0236
2304,43.5111,10.8268
2320,43.7785,10.2362
2336,44.0459,15.3543
2352,44.3133,11.0236
2368,44.5806,12.0079
2384,44.848,15.1575
2400,45.1154,29.1339
2416,45.3828,13.7795
2432,45.6502,9.64567
2448,45.9175,10.0394
2464,46.1849,9.84252
2480,46.4523,9.44882
2496,46.7197,9.44882
2512,46.9871,9.25197
2528,47.2544,6.49606
2544,47.5218,9.64567
2560,47.7892,7.67717
2576,48.0566,9.25197
2592,48.324,9.05512
2608,48.5913,9.44882
2624,48.8587,10.0394
2640,49.1261,8.66142
2656,49.3935,18.1102
2672,49.6609,12.4016
2688,49.9282,11.4173
2704,50.1956,13.7795
2720,50.463,22.4409
2736,50.7304,35.8268
2752,50.9978,28.7402
2768,51.2651,38.5827
2784,51.5325,15.748
2800,51.7999,13.7795
2816,52.0673,7.87402
2832,52.3347,9.44882
2848,52.602,8.66142
2864,52.8694,10.0394
2880,53.1368,7.87402
2896,53.4042,7.67717
2912,53.6716,8.07087
2928,53.939,6.10236
2944,54.2063,7.87402
2960,54.4737,5.70866
2976,54.7411,7.87402
2992,55.0085,9.25197
3008,55.2759,5.11811
3024,55.5432,5.51181
3040,55.8106,7.48031
3056,56.078,8.26772
3072,56.3454,5.70866
3088,56.6128,7.87402
3104,56.8801,8.66142
3120,57.1475,6.29921
3136,57.4149,5.51181
3152,57.6823,9.64567
3168,57.9497,6.88976
3184,58.217,8.26772
3200,58.4844,6.88976
3216,58.7518,9.05512
3232,59.0192,12.4016
3248,59.2866,10.0394
3264,59.5539,8.26772
3280,59.8213,10.6299
3296,60.0887,17.9134
3312,60.3561,9.84252
3328,60.6235,6.69291
3344,60.8908,8.66142
3360,61.1582,6.10236
3376,61.4256,6.29921
3392,61.693,6.29921
3408,61.9604,7.48031
3424,62.2277,7.48031
3440,62.4951,7.08661
3456,62.7625,8.07087
3472,63.0299,7.87402
3488,63.2973,10.8268
3504,63.5646,18.5039
3520,63.832,13.5827
3536,64.0994,10.6299
3552,64.3668,10.8268
3568,64.6342,10.6299
3584,64.9015,8.07087
3600,65.1689,8.07087
3616,65.4363,9.64567
3632,65.7037,6.88976
3648,65.9711,6.29921
3664,66.2384,8.46457
3680,66.5058,8.46457
3696,66.7732,5.11811
3712,67.0406,8.66142
3728,67.308,11.2205
3744,67.5753,16.7323
3760,67.8427,10.6299
3776,68.1101,9.64567
3792,68.3775,6.88976
3808,68.6449,5.11811
3824,68.9122,6.49606
3840,69.1796,6.69291
3856,69.447,5.70866
3872,69.7144,6.88976
3888,69.9818,7.87402
3904,70.2491,7.67717
3920,70.5165,8.07087
3936,70.7839,10.2362
3952,71.0513,4.52756
3968,71.3187,6.88976
3984,71.5861,6.10236
4000,71.8534,5.51181
4016,72.1208,3.93701
4032,72.3882,5.51181
4048,72.6556,6.10236
4064,72.923,8.26772
4080,73.1903,9.44882
4096,73.4577,9.84252
4112,73.7251,7.48031
4128,73.9925,5.51181
4144,74.2599,6.69291
4160,74.5272,7.67717
4176,74.7946,8.66142
4192,75.062,8.46457
4208,75.3294,6.49606
4224,75.5968,6.29921
4240,75.8641,8.46457
4256,76.1315,6.49606
4272,76.3989,6.69291
4288,76.6663,4.13386
4304,76.9337,10.2362
4320,77.201,7.67717
4336,77.4684,10.6299
4352,77.7358,4.52756
4368,78.0032,6.29921
4384,78.2706,5.31496
4400,78.5379,8.66142
4416,78.8053,6.10236
4432,79.0727,6.29921
4448,79.3401,6.49606
4464,79.6075,6.29921
4480,79.8748,10.0394
4496,80.1422,8.46457
4512,80.4096,5.70866
4528,80.677,7.87402
4544,80.9444,6.88976
4560,81.2117,9.05512
4576,81.4791,6.49606
4592,81.7465,8.26772
4608,82.0139,6.29921
4624,82.2813,8.07087
4640,82.5486,9.84252
4656,82.816,7.87402
4672,83.0834,7.08661
4688,83.3508,5.11811
4704,83.6182,6.88976
4720,83.8855,8.46457
4736,84.1529,4.72441
4752,84.4203,6.69291
4768,84.6877,8.26772
4784,84.9551,5.31496
4786,84.9885,9.44882